Folder: LightingPaper2020/Submissions/Submission 1/Supplementary Materials/Data to prepare for SM/Weighting_functions

Note: Submissions/Submission 1/Supplementary Materials/Data to prepare for SM/Weighting_functions/T02_519-62-0_Chlorophyll_b.abs.txt
Wavelength (nm)	T02 abs chl b e
300.00	23660
301.00	23101
302.00	23362
303.00	23639
304.00	23879
305.00	24119
306.00	24326
307.00	24459
308.00	24580
309.00	24587
310.00	24549
311.00	24527
312.00	24370
313.00	24148
314.00	23970
315.00	23763
316.00	23569
317.00	23449
318.00	23376
319.00	23391
320.00	23498
321.00	23686
322.00	23991
323.00	24310
324.00	24727
325.00	25189
326.00	25646
327.00	26149
328.00	26583
329.00	26927
330.00	27205
331.00	27367
332.00	27489
333.00	27520
334.00	27527
335.00	27439
336.00	27313
337.00	27169
338.00	27000
339.00	26786
340.00	26530
341.00	26264
342.00	25969
343.00	25618
344.00	25240
345.00	24889
346.00	24439
347.00	24061
348.00	23713
349.00	23433
350.00	23195
351.00	23002
352.00	22887
353.00	22805
354.00	22804
355.00	22756
356.00	22747
357.00	22698
358.00	22673
359.00	22562
360.00	22288
361.00	21884
362.00	21408
363.00	20903
364.00	20494
365.00	20349
366.00	20384
367.00	20223
368.00	19971
369.00	19608
370.00	19349
371.00	19074
372.00	18840
373.00	18758
374.00	18623
375.00	18550
376.00	18458
377.00	18331
378.00	18076
379.00	17651
380.00	17249
381.00	16689
382.00	16020
383.00	15228
384.00	14406
385.00	13535
386.00	12725
387.00	12000
388.00	11341
389.00	10863
390.00	10509
391.00	10240
392.00	10143
393.00	10132
394.00	10318
395.00	10532
396.00	10866
397.00	11272
398.00	11651
399.00	12046
400.00	12482
401.00	12949
402.00	13311
403.00	13649
404.00	14073
405.00	14414
406.00	14825
407.00	15370
408.00	15933
409.00	16661
410.00	17585
411.00	18624
412.00	19949
413.00	21545
414.00	23382
415.00	25533
416.00	28012
417.00	30731
418.00	33719
419.00	36856
420.00	40157
421.00	43330
422.00	46245
423.00	48730
424.00	50940
425.00	52742
426.00	54088
427.00	54958
428.00	55479
429.00	55681
430.00	55564
431.00	55363
432.00	55087
433.00	54721
434.00	54639
435.00	55000
436.00	55734
437.00	57199
438.00	59512
439.00	62704
440.00	67006
441.00	72622
442.00	78895
443.00	86397
444.00	94883
445.00	1.0418e+05
446.00	1.1408e+05
447.00	1.2372e+05
448.00	1.3321e+05
449.00	1.4186e+05
450.00	1.4955e+05
451.00	1.5504e+05
452.00	1.5879e+05
453.00	1.6000e+05
454.00	1.5909e+05
455.00	1.5587e+05
456.00	1.5077e+05
457.00	1.4384e+05
458.00	1.3545e+05
459.00	1.2628e+05
460.00	1.1687e+05
461.00	1.0700e+05
462.00	97026
463.00	86871
464.00	77084
465.00	68305
466.00	60223
467.00	52567
468.00	44938
469.00	38610
470.00	32742
471.00	27435
472.00	22836
473.00	18940
474.00	15821
475.00	13125
476.00	10928
477.00	9175.6
478.00	7683.3
479.00	6498.4
480.00	5551.1
481.00	4814.3
482.00	4273.9
483.00	3830.4
484.00	3439.6
485.00	3037.7
486.00	2778.7
487.00	3022.8
488.00	2805.8
489.00	2648.8
490.00	2631.0
491.00	2609.6
492.00	2615.2
493.00	2596.1
494.00	2592.1
495.00	2571.4
496.00	2592.7
497.00	2645.1
498.00	2701.6
499.00	2640.8
500.00	2701.4
501.00	2705.2
502.00	2716.4
503.00	2734.2
504.00	2733.3
505.00	2757.2
506.00	2748.0
507.00	2737.9
508.00	2752.4
509.00	2792.9
510.00	2809.9
511.00	2836.3
512.00	2804.3
513.00	2867.4
514.00	2920.0
515.00	2993.5
516.00	3019.5
517.00	3042.7
518.00	3

Note: README.md
# LightingPaper2020

This repository was used to develop the *Energies* paper on the exergy of lighting.

The final version of the paper can be found at [http://doi.org/10.3390/en13205489](http://doi.org/10.3390/en13205489).

Supplementary materials for the paper can be found at [https://doi.org/10.5518/865](https://doi.org/10.5518/865).

File: D10_7235-40-7_Beta-carotene.abs.txt
Wavelength (nm)	D10 abs e
200.00	88524
202.00	83072
204.00	79038
206.00	75406
208.00	71589
210.00	67612
212.00	63087
214.00	58596
216.00	54567
218.00	50512
220.00	46794
222.00	43655
224.00	40703
226.00	37971
228.00	35785
230.00	34133
232.00	32750
234.00	31598
236.00	30937
238.00	30458
240.00	30115
242.00	29855
244.00	29654
246.00	29354
248.00	29039
250.00	28844
252.00	28886
254.00	29025
256.00	29112
258.00	29084
260.00	29303
262.00	29636
264.00	30169
266.00	30633
268.00	30770
270.00	30718
272.00	30636
274.00	30275
276.00	29666
278.00	29161
280.00	28361
282.00	27456
284.00	26384
286.00	25044
288.00	23537
290.00	22178
292.00	20869
294.00	19560
296.00	18455
298.00	17336
300.00	16400
302.00	15679
304.00	15172
306.00	14858
308.00	14651
310.00	14710
312.00	14771
314.00	14976
316.00	15259
318.00	15435
320.00	15767
322.00	15954
324.00	16219
326.00	16573
328.00	17015
330.00	17364
332.00	17728
334.00	18034
336.00	18216
338.00	18498
340.00	18706
342.00	18791
344.00	19049
346.00	19233
348.00	19505
350.00	19819
352.00	20341
354.00	20831
356.00	21257
358.00	21916
360.00	22556
362.00	23216
364.00	24066
366.00	25054
368.00	26501
370.00	28253
372.00	30144
374.00	32309
376.00	34516
378.00	36403
380.00	38135
382.00	39670
384.00	41285
386.00	43279
388.00	45639
390.00	48573
392.00	52093
394.00	56263
396.00	60302
398.00	64144
400.00	67581
402.00	70174
404.00	72434
406.00	74356
408.00	76468
410.00	79038
412.00	82708
414.00	86704
416.00	91716
418.00	97228
420.00	1.0228e+05
422.00	1.0693e+05
424.00	1.1038e+05
426.00	1.1276e+05
428.00	1.1374e+05
430.00	1.1384e+05
432.00	1.1371e+05
434.00	1.1389e+05
436.00	1.1512e+05
438.00	1.1743e+05
440.00	1.2086e+05
442.00	1.2529e+05
444.00	1.2970e+05
446.00	1.3417e+05
448.00	1.3767e+05
450.00	1.3931e+05
452.00	1.3909e+05
454.00	1.3713e+05
456.00	1.3308e+05
458.00	1.2786e+05
460.00	1.2234e+05
462.00	1.1659e+05
464.00	1.1157e+05
466.00	1.0832e+05
468.00	1.0630e+05
470.00	1.0583e+05
472.00	1.0641e+05
474.00	1.0731e+05
476.00	1.0818e+05
478.00	1.0815e+05
480.00	1.0649e+05
482.00	1.0341e+05
484.00	98495
486.00	92012
488.00	84573
490.00	75247
492.00	66028
494.00	56943
496.00	48177
498.00	40097
500.00	32983
502.00	26903
504.00	21654
506.00	17386
508.00	13964
510.00	11193
512.00	9146.6
514.00	7436.8
516.00	6141.0
518.00	5210.4
520.00	4398.7
522.00	3679.3
524.00	3240.7
526.00	2798.1
528.00	2404.1
530.00	2238.5
532.00	1944.1
534.00	1709.1
536.00	1619.4
538.00	1444.4
540.00	1324.4
542.00	1137.1
544.00	1112.9
546.00	999.05
548.00	877.20
550.00	789.32
552.00	745.95
554.00	782.12
556.00	603.10
558.00	616.52
560.00	546.38
562.00	552.15
564.00	450.16
566.00	404.59
568.00	442.96
570.00	392.31
572.00	394.51
574.00	335.90
576.00	367.36
578.00	341.36
580.00	222.01
582.00	364.10
584.00	225.27
586.00	283.50
588.00	320.35
590.00	218.07
592.00	115.02
594.00	224.97
596.00	125.87
598.00	113.96
600.00	114.65